build	computer.platform	date	time	subject	group	session	blockcode	blocknum	trialcode	trialnum	response	latency	gameround	trialtype	losscards	gainamount	lossamount	ncards	nsubcards	nsafecards	score	totalscore
6.6.1	mac	2022-11-09	09:26:50	1	1	1	CCT	1	pickcard	2	button	37	1	1	1	30	250	0	0	31	0	0
6.6.1	mac	2022-11-09	09:26:50	1	1	1	CCT	1	turncard	3	0	500	1	1	1	30	250	0	0	31	0	0
6.6.1	mac	2022-11-09	09:26:50	1	1	1	CCT	1	pickagain	4	0	500	1	1	1	30	250	0	0	31	0	0
6.6.1	mac	2022-11-09	09:26:50	1	1	1	CCT	1	pickagain	5	0	500	1	1	1	30	250	0	0	31	0	0
6.6.1	mac	2022-11-09	09:26:50	1	1	1	CCT	1	pickagain	6	0	500	1	1	1	30	250	0	0	31	0	0
6.6.1	mac	2022-11-09	09:26:50	1	1	1	CCT	1	pickagain	7	button2	42	1	1	1	30	250	0	0	31	0	0
6.6.1	mac	2022-11-09	09:26:50	1	1	1	CCT	1	turnover	9	button	41	1	1	1	30	250	0	0	31	0	0
6.6.1	mac	2022-11-09	09:26:50	1	1	1	CCT	1	pickcard	11	CR2C7	31	2	1	2	30	250	1	1	30	0	0
6.6.1	mac	2022-11-09	09:26:50	1	1	1	CCT	1	pickcard	12	CR2C3	25	2	1	2	30	250	2	2	30	0	0
6.6.1	mac	2022-11-09	09:26:50	1	1	1	CCT	1	pickcard	13	CR4C3	33	2	1	2	30	250	3	3	30	0	0
6.6.1	mac	2022-11-09	09:26:50	1	1	1	CCT	1	pickcard	14	CR1C8	35	2	1	2	30	250	4	4	30	0	0
6.6.1	mac	2022-11-09	09:26:50	1	1	1	CCT	1	pickcard	15	CR4C1	51	2	1	2	30	250	5	5	30	0	0
6.6.1	mac	2022-11-09	09:26:50	1	1	1	CCT	1	pickcard	16	CR4C6	28	2	1	2	30	250	6	6	30	0	0
6.6.1	mac	2022-11-09	09:26:50	1	1	1	CCT	1	pickcard	17	CR4C4	42	2	1	2	30	250	7	7	30	0	0
6.6.1	mac	2022-11-09	09:26:50	1	1	1	CCT	1	pickcard	18	CR3C5	66	2	1	2	30	250	8	8	30	0	0
6.6.1	mac	2022-11-09	09:26:50	1	1	1	CCT	1	pickcard	19	CR2C1	144	2	1	2	30	250	9	9	30	0	0
6.6.1	mac	2022-11-09	09:26:50	1	1	1	CCT	1	pickcard	20	CR4C7	85	2	1	2	30	250	10	10	30	0	0
6.6.1	mac	2022-11-09	09:26:50	1	1	1	CCT	1	pickcard	21	CR1C5	49	2	1	2	30	250	11	11	30	0	0
6.6.1	mac	2022-11-09	09:26:50	1	1	1	CCT	1	pickcard	22	CR2C6	41	2	1	2	30	250	12	12	30	0	0
6.6.1	mac	2022-11-09	09:26:50	1	1	1	CCT	1	pickcard	23	CR4C5	47	2	1	2	30	250	13	13	30	0	0
6.6.1	mac	2022-11-09	09:26:50	1	1	1	CCT	1	pickcard	24	CR1C6	79	2	1	2	30	250	14	14	30	0	0
6.6.1	mac	2022-11-09	09:26:50	1	1	1	CCT	1	pickcard	25	CR3C7	216	2	1	2	30	250	15	15	30	0	0
6.6.1	mac	2022-11-09	09:26:50	1	1	1	CCT	1	pickcard	26	CR2C4	76	2	1	2	30	250	16	16	30	0	0
6.6.1	mac	2022-11-09	09:26:50	1	1	1	CCT	1	pickcard	27	CR3C8	203	2	1	2	30	250	17	17	30	0	0
6.6.1	mac	2022-11-09	09:26:50	1	1	1	CCT	1	pickcard	28	CR1C7	149	2	1	2	30	250	18	18	30	0	0
6.6.1	mac	2022-11-09	09:26:50	1	1	1	CCT	1	pickcard	29	CR1C3	31	2	1	2	30	250	19	19	30	0	0
6.6.1	mac	2022-11-09	09:26:50	1	1	1	CCT	1	pickcard	30	CR3C6	55	2	1	2	30	250	20	20	30	0	0
6.6.1	mac	2022-11-09	09:26:50	1	1	1	CCT	1	pickcard	31	CR3C2	112	2	1	2	30	250	21	21	30	0	0
6.6.1	mac	2022-11-09	09:26:50	1	1	1	CCT	1	pickcard	32	CR2C2	174	2	1	2	30	250	22	22	30	0	0
6.6.1	mac	2022-11-09	09:26:50	1	1	1	CCT	1	pickcard	33	CR4C8	286	2	1	2	30	250	23	23	30	0	0
6.6.1	mac	2022-11-09	09:26:50	1	1	1	CCT	1	pickcard	34	CR4C2	47	2	1	2	30	250	24	24	30	0	0
6.6.1	mac	2022-11-09	09:26:50	1	1	1	CCT	1	pickcard	35	CR1C1	39	2	1	2	30	250	25	25	30	0	0
6.6.1	mac	2022-11-09	09:26:50	1	1	1	CCT	1	pickcard	36	CR2C5	102	2	1	2	30	250	26	26	30	0	0
6.6.1	mac	2022-11-09	09:26:50	1	1	1	CCT	1	pickcard	37	CR2C8	71	2	1	2	30	250	27	27	30	0	0
6.6.1	mac	2022-11-09	09:26:50	1	1	1	CCT	1	pickcard	38	CR1C4	62	2	1	2	30	250	28	28	30	0	0
6.6.1	mac	2022-11-09	09:26:50	1	1	1	CCT	1	pickcard	39	CR1C2	344	2	1	2	30	250	29	29	30	0	0
6.6.1	mac	2022-11-09	09:26:50	1	1	1	CCT	1	pickcard	40	button	49	2	1	2	30	250	29	29	30	0	0
6.6.1	mac	2022-11-09	09:26:50	1	1	1	CCT	1	turncard	41	0	500	2	1	2	30	250	1	29	30	30	0
6.6.1	mac	2022-11-09	09:26:50	1	1	1	CCT	1	turncard	42	0	500	2	1	2	30	250	2	29	30	60	0
6.6.1	mac	2022-11-09	09:26:50	1	1	1	CCT	1	turncard	43	0	500	2	1	2	30	250	3	29	30	90	0
6.6.1	mac	2022-11-09	09:26:50	1	1	1	CCT	1	turncard	44	0	500	2	1	2	30	250	4	29	30	120	0
6.6.1	mac	2022-11-09	09:26:50	1	1	1	CCT	1	turncard	45	0	500	2	1	2	30	250	5	29	30	150	0
6.6.1	mac	2022-11-09	09:26:50	1	1	1	CCT	1	turncard	46	0	500	2	1	2	30	250	6	29	30	180	0
6.6.1	mac	2022-11-09	09:26:50	1	1	1	CCT	1	turncard	47	0	500	2	1	2	30	250	7	29	30	210	0
6.6.1	mac	2022-11-09	09:26:50	1	1	1	CCT	1	turncard	48	0	500	2	1	2	30	250	8	29	30	240	0
6.6.1	mac	2022-11-09	09:26:50	1	1	1	CCT	1	turncard	49	0	500	2	1	2	30	250	9	29	30	270	0
6.6.1	mac	2022-11-09	09:26:50	1	1	1	CCT	1	turncard	50	0	500	2	1	2	30	250	10	29	30	300	0
6.6.1	mac	2022-11-09	09:26:50	1	1	1	CCT	1	turncard	51	0	500	2	1	2	30	250	11	29	30	330	0
6.6.1	mac	2022-11-09	09:26:50	1	1	1	CCT	1	turncard	52	0	500	2	1	2	30	250	12	29	30	360	0
6.6.1	mac	2022-11-09	09:26:50	1	1	1	CCT	1	turncard	53	0	500	2	1	2	30	250	13	29	30	390	0
6.6.1	mac	2022-11-09	09:26:50	1	1	1	CCT	1	turncard	54	0	500	2	1	2	30	250	14	29	30	420	0
6.6.1	mac	2022-11-09	09:26:50	1	1	1	CCT	1	turncard	55	0	500	2	1	2	30	250	15	29	30	450	0
6.6.1	mac	2022-11-09	09:26:50	1	1	1	CCT	1	turncard	56	0	500	2	1	2	30	250	16	29	30	480	0
6.6.1	mac	2022-11-09	09:26:50	1	1	1	CCT	1	turncard	57	0	500	2	1	2	30	250	17	29	30	510	0
6.6.1	mac	2022-11-09	09:26:50	1	1	1	CCT	1	turncard	58	0	500	2	1	2	30	250	18	29	30	540	0
6.6.1	mac	2022-11-09	09:26:50	1	1	1	CCT	1	turncard	59	0	500	2	1	2	30	250	19	29	30	570	0
6.6.1	mac	2022-11-09	09:26:50	1	1	1	CCT	1	turncard	60	0	500	2	1	2	30	250	20	29	30	600	0
6.6.1	mac	2022-11-09	09:26:50	1	1	1	CCT	1	turncard	61	0	500	2	1	2	30	250	21	29	30	630	0
6.6.1	mac	2022-11-09	09:26:50	1	1	1	CCT	1	turncard	62	0	500	2	1	2	30	250	22	29	30	660	0
6.6.1	mac	2022-11-09	09:26:50	1	1	1	CCT	1	turncard	63	0	500	2	1	2	30	250	23	29	30	690	0
6.6.1	mac	2022-11-09	09:26:50	1	1	1	CCT	1	turncard	64	0	500	2	1	2	30	250	24	29	30	720	0
6.6.1	mac	2022-11-09	09:26:50	1	1	1	CCT	1	turncard	65	0	500	2	1	2	30	250	25	29	30	750	0
6.6.1	mac	2022-11-09	09:26:50	1	1	1	CCT	1	turncard	66	0	500	2	1	2	30	250	26	29	30	780	0
6.6.1	mac	2022-11-09	09:26:50	1	1	1	CCT	1	turncard	67	0	500	2	1	2	30	250	27	29	30	810	0
6.6.1	mac	2022-11-09	09:26:50	1	1	1	CCT	1	turncard	68	0	500	2	1	2	30	250	28	29	30	840	0
6.6.1	mac	2022-11-09	09:26:50	1	1	1	CCT	1	turncard	69	0	500	2	1	2	30	250	29	29	30	870	0
6.6.1	mac	2022-11-09	09:26:50	1	1	1	CCT	1	turncard	70	0	500	2	1	2	30	250	29	29	30	870	0
6.6.1	mac	2022-11-09	09:26:50	1	1	1	CCT	1	pickagain	71	button2	55	2	1	2	30	250	29	0	30	870	0
6.6.1	mac	2022-11-09	09:26:50	1	1	1	CCT	1	turnover	83	button	28	2	1	2	30	250	29	0	30	870	870
6.6.1	mac	2022-11-09	09:26:50	1	1	1	CCT	1	pickcard	85	CR4C2	58	3	1	1	10	250	1	1	31	0	870
6.6.1	mac	2022-11-09	09:26:50	1	1	1	CCT	1	pickcard	86	button	55	3	1	1	10	250	1	1	31	0	870
6.6.1	mac	2022-11-09	09:26:50	1	1	1	CCT	1	turncard	87	0	500	3	1	1	10	250	1	1	31	10	870
6.6.1	mac	2022-11-09	09:26:50	1	1	1	CCT	1	turncard	88	0	500	3	1	1	10	250	1	1	31	10	870
6.6.1	mac	2022-11-09	09:26:50	1	1	1	CCT	1	pickagain	89	0	500	3	1	1	10	250	1	0	31	10	870
6.6.1	mac	2022-11-09	09:26:50	1	1	1	CCT	1	pickagain	90	button	40	3	1	1	10	250	1	0	31	10	870
6.6.1	mac	2022-11-09	09:26:50	1	1	1	CCT	1	pickcard	91	CR2C5	23	3	1	1	10	250	2	1	31	10	870
6.6.1	mac	2022-11-09	09:26:50	1	1	1	CCT	1	pickcard	92	CR2C6	34	3	1	1	10	250	3	2	31	10	870
6.6.1	mac	2022-11-09	09:26:50	1	1	1	CCT	1	pickcard	93	CR3C7	31	3	1	1	10	250	4	3	31	10	870
6.6.1	mac	2022-11-09	09:26:50	1	1	1	CCT	1	pickcard	94	CR1C5	40	3	1	1	10	250	5	4	31	10	870
6.6.1	mac	2022-11-09	09:26:50	1	1	1	CCT	1	pickcard	95	CR4C3	49	3	1	1	10	250	6	5	31	10	870
6.6.1	mac	2022-11-09	09:26:50	1	1	1	CCT	1	pickcard	96	CR2C4	80	3	1	1	10	250	7	6	31	10	870
6.6.1	mac	2022-11-09	09:26:50	1	1	1	CCT	1	pickcard	97	CR1C7	76	3	1	1	10	250	8	7	31	10	870
6.6.1	mac	2022-11-09	09:26:50	1	1	1	CCT	1	pickcard	98	CR4C8	33	3	1	1	10	250	9	8	31	10	870
6.6.1	mac	2022-11-09	09:26:50	1	1	1	CCT	1	pickcard	99	CR2C3	54	3	1	1	10	250	10	9	31	10	870
6.6.1	mac	2022-11-09	09:26:50	1	1	1	CCT	1	pickcard	100	button	21	3	1	1	10	250	10	9	31	10	870
6.6.1	mac	2022-11-09	09:26:50	1	1	1	CCT	1	turncard	101	0	500	3	1	1	10	250	1	9	31	20	870
6.6.1	mac	2022-11-09	09:26:50	1	1	1	CCT	1	turncard	102	0	500	3	1	1	10	250	2	9	31	30	870
6.6.1	mac	2022-11-09	09:26:50	1	1	1	CCT	1	turncard	103	0	500	3	1	1	10	250	3	9	31	40	870
6.6.1	mac	2022-11-09	09:26:50	1	1	1	CCT	1	turncard	104	0	500	3	1	1	10	250	4	9	31	50	870
6.6.1	mac	2022-11-09	09:26:50	1	1	1	CCT	1	turncard	105	0	500	3	1	1	10	250	5	9	31	60	870
6.6.1	mac	2022-11-09	09:26:50	1	1	1	CCT	1	turncard	106	0	500	3	1	1	10	250	6	9	31	70	870
6.6.1	mac	2022-11-09	09:26:50	1	1	1	CCT	1	turncard	107	0	500	3	1	1	10	250	7	9	31	80	870
6.6.1	mac	2022-11-09	09:26:50	1	1	1	CCT	1	turncard	108	0	500	3	1	1	10	250	8	9	31	90	870
6.6.1	mac	2022-11-09	09:26:50	1	1	1	CCT	1	turncard	109	0	500	3	1	1	10	250	9	9	31	100	870
6.6.1	mac	2022-11-09	09:26:50	1	1	1	CCT	1	turncard	110	0	500	3	1	1	10	250	9	9	31	100	870
6.6.1	mac	2022-11-09	09:26:50	1	1	1	CCT	1	pickagain	111	button	40	3	1	1	10	250	9	0	31	100	870
6.6.1	mac	2022-11-09	09:26:50	1	1	1	CCT	1	pickcard	112	CR4C1	49	3	1	1	10	250	10	1	31	100	870
6.6.1	mac	2022-11-09	09:26:50	1	1	1	CCT	1	pickcard	113	CR1C8	40	3	1	1	10	250	11	2	31	100	870
6.6.1	mac	2022-11-09	09:26:50	1	1	1	CCT	1	pickcard	114	CR3C8	53	3	1	1	10	250	12	3	31	100	870
6.6.1	mac	2022-11-09	09:26:50	1	1	1	CCT	1	pickcard	115	CR1C6	46	3	1	1	10	250	13	4	31	100	870
6.6.1	mac	2022-11-09	09:26:50	1	1	1	CCT	1	pickcard	116	CR1C3	104	3	1	1	10	250	14	5	31	100	870
6.6.1	mac	2022-11-09	09:26:50	1	1	1	CCT	1	pickcard	117	CR4C7	163	3	1	1	10	250	15	6	31	100	870
6.6.1	mac	2022-11-09	09:26:50	1	1	1	CCT	1	pickcard	118	CR3C1	91	3	1	1	10	250	16	7	31	100	870
6.6.1	mac	2022-11-09	09:26:50	1	1	1	CCT	1	pickcard	119	CR2C1	76	3	1	1	10	250	17	8	31	100	870
6.6.1	mac	2022-11-09	09:26:50	1	1	1	CCT	1	pickcard	120	CR1C2	287	3	1	1	10	250	18	9	31	100	870
6.6.1	mac	2022-11-09	09:26:50	1	1	1	CCT	1	pickcard	121	CR2C7	96	3	1	1	10	250	19	10	31	100	870
6.6.1	mac	2022-11-09	09:26:50	1	1	1	CCT	1	pickcard	122	CR2C8	44	3	1	1	10	250	20	11	31	100	870
6.6.1	mac	2022-11-09	09:26:50	1	1	1	CCT	1	pickcard	123	CR3C2	489	3	1	1	10	250	21	12	31	100	870
6.6.1	mac	2022-11-09	09:26:50	1	1	1	CCT	1	pickcard	124	CR1C1	55	3	1	1	10	250	22	13	31	100	870
6.6.1	mac	2022-11-09	09:26:50	1	1	1	CCT	1	pickcard	125	CR3C4	97	3	1	1	10	250	23	14	31	100	870
6.6.1	mac	2022-11-09	09:26:50	1	1	1	CCT	1	pickcard	126	CR4C6	245	3	1	1	10	250	24	15	31	100	870
6.6.1	mac	2022-11-09	09:26:50	1	1	1	CCT	1	pickcard	127	CR4C4	304	3	1	1	10	250	25	16	31	100	870
6.6.1	mac	2022-11-09	09:26:50	1	1	1	CCT	1	pickcard	128	CR3C3	225	3	1	1	10	250	26	17	31	100	870
6.6.1	mac	2022-11-09	09:26:50	1	1	1	CCT	1	pickcard	129	CR1C4	244	3	1	1	10	250	27	18	31	100	870
6.6.1	mac	2022-11-09	09:26:50	1	1	1	CCT	1	pickcard	130	button	130	3	1	1	10	250	27	18	31	100	870
6.6.1	mac	2022-11-09	09:26:50	1	1	1	CCT	1	turncard	131	0	500	3	1	1	10	250	1	18	31	110	870
6.6.1	mac	2022-11-09	09:26:50	1	1	1	CCT	1	turncard	132	0	500	3	1	1	10	250	2	18	31	120	870
6.6.1	mac	2022-11-09	09:26:50	1	1	1	CCT	1	turncard	133	0	500	3	1	1	10	250	3	18	31	130	870
6.6.1	mac	2022-11-09	09:26:50	1	1	1	CCT	1	turncard	134	0	500	3	1	1	10	250	4	18	31	140	870
6.6.1	mac	2022-11-09	09:26:50	1	1	1	CCT	1	turncard	135	0	500	3	1	1	10	250	5	18	31	150	870
6.6.1	mac	2022-11-09	09:26:50	1	1	1	CCT	1	turncard	136	0	500	3	1	1	10	250	6	18	31	160	870
6.6.1	mac	2022-11-09	09:26:50	1	1	1	CCT	1	turncard	137	0	500	3	1	1	10	250	7	18	31	170	870
6.6.1	mac	2022-11-09	09:26:50	1	1	1	CCT	1	turncard	138	0	500	3	1	1	10	250	8	18	31	180	870
6.6.1	mac	2022-11-09	09:26:50	1	1	1	CCT	1	turncard	139	0	500	3	1	1	10	250	9	18	31	190	870
6.6.1	mac	2022-11-09	09:26:50	1	1	1	CCT	1	turncard	140	0	500	3	1	1	10	250	10	18	31	200	870
6.6.1	mac	2022-11-09	09:26:50	1	1	1	CCT	1	turncard	141	0	500	3	1	1	10	250	11	18	31	210	870
6.6.1	mac	2022-11-09	09:26:50	1	1	1	CCT	1	turncard	142	0	500	3	1	1	10	250	12	18	31	220	870
6.6.1	mac	2022-11-09	09:26:50	1	1	1	CCT	1	turncard	143	0	500	3	1	1	10	250	13	18	31	230	870
6.6.1	mac	2022-11-09	09:26:50	1	1	1	CCT	1	turncard	144	0	500	3	1	1	10	250	14	18	31	240	870
6.6.1	mac	2022-11-09	09:26:50	1	1	1	CCT	1	turncard	145	0	500	3	1	1	10	250	15	18	31	250	870
6.6.1	mac	2022-11-09	09:26:50	1	1	1	CCT	1	turncard	146	0	500	3	1	1	10	250	16	18	31	260	870
6.6.1	mac	2022-11-09	09:26:50	1	1	1	CCT	1	turncard	147	0	500	3	1	1	10	250	17	18	31	270	870
6.6.1	mac	2022-11-09	09:26:50	1	1	1	CCT	1	turncard	148	0	500	3	1	1	10	250	18	18	31	280	870
6.6.1	mac	2022-11-09	09:26:50	1	1	1	CCT	1	turncard	149	0	500	3	1	1	10	250	18	18	31	280	870
6.6.1	mac	2022-11-09	09:26:50	1	1	1	CCT	1	pickagain	150	0	500	3	1	1	10	250	18	0	31	280	870
6.6.1	mac	2022-11-09	09:26:50	1	1	1	CCT	1	pickagain	151	0	500	3	1	1	10	250	18	0	31	280	870
6.6.1	mac	2022-11-09	09:26:50	1	1	1	CCT	1	pickagain	152	button	38	3	1	1	10	250	18	0	31	280	870
6.6.1	mac	2022-11-09	09:26:50	1	1	1	CCT	1	pickcard	153	CR2C2	279	3	1	1	10	250	19	1	31	280	870
6.6.1	mac	2022-11-09	09:26:50	1	1	1	CCT	1	pickcard	154	button	90	3	1	1	10	250	19	1	31	280	870
6.6.1	mac	2022-11-09	09:26:50	1	1	1	CCT	1	turncard	155	0	500	3	1	1	10	250	1	1	31	290	870
6.6.1	mac	2022-11-09	09:26:50	1	1	1	CCT	1	turncard	156	0	500	3	1	1	10	250	1	1	31	290	870
6.6.1	mac	2022-11-09	09:26:50	1	1	1	CCT	1	pickagain	157	button2	42	3	1	1	10	250	1	0	31	290	870
6.6.1	mac	2022-11-09	09:26:50	1	1	1	CCT	1	turnover	179	button	33	3	1	1	10	250	1	0	31	290	1160
6.6.1	mac	2022-11-09	09:26:50	1	1	1	CCT	1	getcondition	180	Ctrl+'Q'	471	4	1	1	20	250	0	0	31	0	1160
