build	computer.platform	date	time	subject	group	session	blockcode	blocknum	trialcode	trialnum	response	latency	gameround	trialtype	losscards	gainamount	lossamount	ncards	nsubcards	nsafecards	score	totalscore
6.6.1	mac	2022-11-09	09:24:44	1	1	1	CCT	1	pickcard	2	CR4C1	36	1	1	1	20	500	1	1	31	0	0
6.6.1	mac	2022-11-09	09:24:44	1	1	1	CCT	1	pickcard	3	CR4C3	48	1	1	1	20	500	2	2	31	0	0
6.6.1	mac	2022-11-09	09:24:44	1	1	1	CCT	1	pickcard	4	CR2C6	55	1	1	1	20	500	3	3	31	0	0
6.6.1	mac	2022-11-09	09:24:44	1	1	1	CCT	1	pickcard	5	CR2C7	59	1	1	1	20	500	4	4	31	0	0
6.6.1	mac	2022-11-09	09:24:44	1	1	1	CCT	1	pickcard	6	CR1C2	53	1	1	1	20	500	5	5	31	0	0
6.6.1	mac	2022-11-09	09:24:44	1	1	1	CCT	1	pickcard	7	button	43	1	1	1	20	500	5	5	31	0	0
6.6.1	mac	2022-11-09	09:24:44	1	1	1	CCT	1	turncard	8	0	500	1	1	1	20	500	6	5	31	20	0
6.6.1	mac	2022-11-09	09:24:44	1	1	1	CCT	1	turncard	9	0	500	1	1	1	20	500	7	5	31	40	0
6.6.1	mac	2022-11-09	09:24:44	1	1	1	CCT	1	turncard	10	0	500	1	1	1	20	500	8	5	31	60	0
6.6.1	mac	2022-11-09	09:24:44	1	1	1	CCT	1	turncard	11	0	500	1	1	1	20	500	9	5	31	80	0
6.6.1	mac	2022-11-09	09:24:44	1	1	1	CCT	1	turncard	12	0	500	1	1	1	20	500	10	5	31	100	0
6.6.1	mac	2022-11-09	09:24:44	1	1	1	CCT	1	turncard	13	0	500	1	1	1	20	500	10	5	31	100	0
6.6.1	mac	2022-11-09	09:24:44	1	1	1	CCT	1	pickagain	14	button2	46	1	1	1	20	500	10	0	31	100	0
6.6.1	mac	2022-11-09	09:24:44	1	1	1	CCT	1	turnover	17	button	38	1	1	1	20	500	10	0	31	100	100
6.6.1	mac	2022-11-09	09:24:44	1	1	1	CCT	1	pickcard	19	CR1C3	38	2	1	3	20	750	1	1	29	0	100
6.6.1	mac	2022-11-09	09:24:44	1	1	1	CCT	1	pickcard	20	CR3C5	35	2	1	3	20	750	2	2	29	0	100
6.6.1	mac	2022-11-09	09:24:44	1	1	1	CCT	1	pickcard	21	CR4C2	57	2	1	3	20	750	3	3	29	0	100
6.6.1	mac	2022-11-09	09:24:44	1	1	1	CCT	1	pickcard	22	CR3C6	39	2	1	3	20	750	4	4	29	0	100
6.6.1	mac	2022-11-09	09:24:44	1	1	1	CCT	1	pickcard	23	CR1C2	36	2	1	3	20	750	5	5	29	0	100
6.6.1	mac	2022-11-09	09:24:44	1	1	1	CCT	1	pickcard	24	CR1C7	34	2	1	3	20	750	6	6	29	0	100
6.6.1	mac	2022-11-09	09:24:44	1	1	1	CCT	1	pickcard	25	CR1C1	68	2	1	3	20	750	7	7	29	0	100
6.6.1	mac	2022-11-09	09:24:44	1	1	1	CCT	1	pickcard	26	CR1C8	104	2	1	3	20	750	8	8	29	0	100
6.6.1	mac	2022-11-09	09:24:44	1	1	1	CCT	1	pickcard	27	CR4C5	52	2	1	3	20	750	9	9	29	0	100
6.6.1	mac	2022-11-09	09:24:44	1	1	1	CCT	1	pickcard	28	CR2C6	122	2	1	3	20	750	10	10	29	0	100
6.6.1	mac	2022-11-09	09:24:44	1	1	1	CCT	1	pickcard	29	CR1C6	125	2	1	3	20	750	11	11	29	0	100
6.6.1	mac	2022-11-09	09:24:44	1	1	1	CCT	1	pickcard	30	CR2C4	11	2	1	3	20	750	12	12	29	0	100
6.6.1	mac	2022-11-09	09:24:44	1	1	1	CCT	1	pickcard	31	CR3C1	115	2	1	3	20	750	13	13	29	0	100
6.6.1	mac	2022-11-09	09:24:44	1	1	1	CCT	1	pickcard	32	CR2C8	56	2	1	3	20	750	14	14	29	0	100
6.6.1	mac	2022-11-09	09:24:44	1	1	1	CCT	1	pickcard	33	CR4C6	148	2	1	3	20	750	15	15	29	0	100
6.6.1	mac	2022-11-09	09:24:44	1	1	1	CCT	1	pickcard	34	CR2C1	112	2	1	3	20	750	16	16	29	0	100
6.6.1	mac	2022-11-09	09:24:44	1	1	1	CCT	1	pickcard	35	CR4C4	23	2	1	3	20	750	17	17	29	0	100
6.6.1	mac	2022-11-09	09:24:44	1	1	1	CCT	1	pickcard	36	CR4C1	41	2	1	3	20	750	18	18	29	0	100
6.6.1	mac	2022-11-09	09:24:44	1	1	1	CCT	1	pickcard	37	CR4C8	169	2	1	3	20	750	19	19	29	0	100
6.6.1	mac	2022-11-09	09:24:44	1	1	1	CCT	1	pickcard	38	CR3C4	106	2	1	3	20	750	20	20	29	0	100
6.6.1	mac	2022-11-09	09:24:44	1	1	1	CCT	1	pickcard	39	CR4C7	163	2	1	3	20	750	21	21	29	0	100
6.6.1	mac	2022-11-09	09:24:44	1	1	1	CCT	1	pickcard	40	CR2C7	135	2	1	3	20	750	22	22	29	0	100
6.6.1	mac	2022-11-09	09:24:44	1	1	1	CCT	1	pickcard	41	CR3C7	218	2	1	3	20	750	23	23	29	0	100
6.6.1	mac	2022-11-09	09:24:44	1	1	1	CCT	1	pickcard	42	CR1C4	110	2	1	3	20	750	24	24	29	0	100
6.6.1	mac	2022-11-09	09:24:44	1	1	1	CCT	1	pickcard	43	CR1C5	77	2	1	3	20	750	25	25	29	0	100
6.6.1	mac	2022-11-09	09:24:44	1	1	1	CCT	1	pickcard	44	CR3C3	314	2	1	3	20	750	26	26	29	0	100
6.6.1	mac	2022-11-09	09:24:44	1	1	1	CCT	1	pickcard	45	CR3C8	82	2	1	3	20	750	27	27	29	0	100
6.6.1	mac	2022-11-09	09:24:44	1	1	1	CCT	1	pickcard	46	CR2C2	51	2	1	3	20	750	28	28	29	0	100
6.6.1	mac	2022-11-09	09:24:44	1	1	1	CCT	1	pickcard	47	CR2C3	36	2	1	3	20	750	29	29	29	0	100
6.6.1	mac	2022-11-09	09:24:44	1	1	1	CCT	1	pickcard	48	CR2C5	1053	2	1	3	20	750	30	30	29	0	100
6.6.1	mac	2022-11-09	09:24:44	1	1	1	CCT	1	pickcard	49	CR4C3	442	2	1	3	20	750	31	31	29	0	100
6.6.1	mac	2022-11-09	09:24:44	1	1	1	CCT	1	pickcard	50	button	693	2	1	3	20	750	31	31	29	0	100
6.6.1	mac	2022-11-09	09:24:44	1	1	1	CCT	1	turncard	51	0	500	2	1	3	20	750	32	31	29	-750	100
6.6.1	mac	2022-11-09	09:24:44	1	1	1	CCT	1	turnover	54	button	42	2	1	3	20	750	32	31	29	-750	-650
6.6.1	mac	2022-11-09	09:24:44	1	1	1	CCT	1	getcondition	55	Ctrl+'Q'	1431	3	1	2	10	500	0	0	30	0	-650
